{
  "resourceType": "CarePlan",
  "id": "f002",
  "text": {
    "status": "generated",
    "div": "<div xmlns=\"http://www.w3.org/1999/xhtml\"><p><b>Generated Narrative</b></p><p><b>identifier</b>: id: CP2934 (OFFICIAL)</p><p><b>status</b>: completed</p><p><b>intent</b>: plan</p><p><b>subject</b>: <a>P. van de Heuvel. Generated Summary: id: 738472983 (USUAL), id: ?ngen-9? (USUAL); active; Pieter van de Heuvel ; Phone: 0648352638, p.heuvel@gmail.com; gender: male; birthDate: 1944-11-17; <span>Getrouwd</span>; multipleBirth</a></p><p><b>period</b>: 2011-07-06 --&gt; 2013-07-07</p><p><b>careTeam</b>: <a> </a></p><blockquote><h3>Participants</h3><table><tr><td>-</td><td><b>Member</b></td></tr><tr><td>*</td><td><a>M.I.M. Versteegh. Generated Summary: id: 846100293 (OFFICIAL), id: 243HID3RT938 (USUAL); Marc Versteegh (OFFICIAL); Phone: 0205562431, m.versteegh@bmc.nl, Fax: 0205662948; gender: male; birthDate: 1963-07-01; <span>Dutch</span></a></td></tr></table></blockquote><h3>Addresses</h3><table><tr><td>-</td></tr><tr><td>*</td></tr></table><p><b>goal</b>: <a> </a></p><blockquote><p><b>lifecycleStatus</b>: completed</p><p><b>achievementStatus</b>: <span>Achieved</span></p><p><b>description</b>: <span>succesful surgery on lung of patient</span></p><p><b>subject</b>: <a>P. van de Heuvel. Generated Summary: id: 738472983 (USUAL), id: ?ngen-9? (USUAL); active; Pieter van de Heuvel ; Phone: 0648352638, p.heuvel@gmail.com; gender: male; birthDate: 1944-11-17; <span>Getrouwd</span>; multipleBirth</a></p><p><b>note</b>: goal accomplished with minor complications</p></blockquote><blockquote><p><b>activity</b></p><h3>PlannedActivityDetails</h3><table><tr><td>-</td><td><b>Kind</b></td><td><b>Code</b></td><td><b>Status</b></td><td><b>DoNotPerform</b></td><td><b>Scheduled[x]</b></td><td><b>Performer</b></td></tr><tr><td>*</td><td>ServiceRequest</td><td><span>Partial lobectomy of lung</span></td><td>completed</td><td>true</td><td>2011-07-07T09:30:10+01:00</td><td><a>M.I.M. Versteegh. Generated Summary: id: 846100293 (OFFICIAL), id: 243HID3RT938 (USUAL); Marc Versteegh (OFFICIAL); Phone: 0205562431, m.versteegh@bmc.nl, Fax: 0205662948; gender: male; birthDate: 1963-07-01; <span>Dutch</span></a></td></tr></table></blockquote></div>"
  },
  "contained": [
    {
      "resourceType": "CareTeam",
      "id": "careteam",
      "participant": [
        {
          "member": {
            "reference": "Practitioner/f003",
            "display": "M.I.M. Versteegh"
          }
        }
      ]
    },
    {
      "resourceType": "Goal",
      "id": "goal",
      "lifecycleStatus": "completed",
      "achievementStatus": {
        "coding": [
          {
            "system": "http://terminology.hl7.org/CodeSystem/goal-achievement",
            "code": "achieved",
            "display": "Achieved"
          }
        ],
        "text": "Achieved"
      },
      "description": {
        "text": "succesful surgery on lung of patient"
      },
      "subject": {
        "reference": "Patient/f001",
        "display": "P. van de Heuvel"
      },
      "note": [
        {
          "text": "goal accomplished with minor complications"
        }
      ]
    }
  ],
  "identifier": [
    {
      "use": "official",
      "system": "http://www.bmc.nl/zorgportal/identifiers/careplans",
      "value": "CP2934"
    }
  ],
  "status": "completed",
  "intent": "plan",
  "subject": {
    "reference": "Patient/f001",
    "display": "P. van de Heuvel"
  },
  "period": {
    "start": "2011-07-06",
    "end": "2013-07-07"
  },
  "careTeam": [
    {
      "reference": "#careteam"
    }
  ],
  "addresses": [
    {
      "reference": {
        "reference": "Condition/f201",
        "display": "?????"
      }
    }
  ],
  "goal": [
    {
      "reference": "#goal"
    }
  ],
  "activity": [
    {
      "plannedActivityDetail": {
        "kind": "ServiceRequest",
        "code": {
          "coding": [
            {
              "system": "http://snomed.info/sct",
              "code": "359615001",
              "display": "Partial lobectomy of lung"
            }
          ]
        },
        "status": "completed",
        "doNotPerform": true,
        "scheduledString": "2011-07-07T09:30:10+01:00",
        "performer": [
          {
            "reference": "Practitioner/f003",
            "display": "M.I.M. Versteegh"
          }
        ]
      }
    }
  ]
}