{
  "resourceType": "MedicinalProductDefinition",
  "id": "Acetamin-500-20-generic",
  "text": {
    "status": "generated",
    "div": "<div xmlns=\"http://www.w3.org/1999/xhtml\"><p><b>Generated Narrative</b></p><p><b>identifier</b>: id: 12345</p><h3>Names</h3><table><tr><td>-</td><td><b>ProductName</b></td></tr><tr><td>*</td><td>Acetaminophen 500 mg tablets [generic]</td></tr></table><h3>Packages</h3><table><tr><td>-</td><td><b>Package</b></td></tr><tr><td>*</td><td><a> </a><blockquote><blockquote><p><b>package</b></p><p><b>type</b>: <span>cardboard box</span></p><blockquote><p><b>containedItem</b></p><h3>Items</h3><table><tr><td>-</td></tr><tr><td>*</td></tr></table><p><b>amount</b>: 20</p></blockquote></blockquote></blockquote></td></tr></table></div>"
  },
  "contained": [
    {
      "resourceType": "PackagedProductDefinition",
      "id": "Acetamin-pack-20",
      "package": {
        "type": {
          "coding": [
            {
              "code": "cardboard box"
            }
          ]
        },
        "containedItem": [
          {
            "item": [
              {
                "reference": {
                  "reference": "#Acetamin-tab-500"
                }
              }
            ],
            "amountInteger": 20
          }
        ]
      }
    },
    {
      "resourceType": "ManufacturedItemDefinition",
      "id": "Acetamin-tab-500",
      "manufacturedDoseForm": {
        "coding": [
          {
            "code": "tablet"
          }
        ]
      },
      "ingredient": [
        {
          "reference": {
            "reference": "#Acetamin-ing-500"
          }
        }
      ]
    },
    {
      "resourceType": "Ingredient",
      "id": "Acetamin-ing-500",
      "role": {
        "coding": [
          {
            "code": "active"
          }
        ]
      },
      "substance": {
        "code": {
          "concept": {
            "coding": [
              {
                "system": "http://snomed.info/sct",
                "code": "387517004",
                "display": "Acetaminophen"
              }
            ]
          }
        },
        "strength": [
          {
            "presentationRatio": {
              "numerator": {
                "value": 500,
                "unit": "mg"
              },
              "denominator": {
                "value": 1,
                "unit": "tablet"
              }
            }
          }
        ]
      }
    }
  ],
  "identifier": [
    {
      "system": "http://example.nation.org/drugs",
      "value": "12345"
    }
  ],
  "name": [
    {
      "productName": "Acetaminophen 500 mg tablets [generic]"
    }
  ],
  "package": [
    {
      "package": {
        "reference": "#Acetamin-pack-20"
      }
    }
  ]
}