{
  "resourceType": "Bundle",
  "id": "lipids",
  "type": "collection",
  "entry": [
    {
      "fullUrl": "https://example.com/base/DiagnosticReport/lipids",
      "resource": {
        "resourceType": "DiagnosticReport",
        "id": "lipids",
        "text": {
          "status": "generated",
          "div": "\u003cdiv xmlns\u003d\"http://www.w3.org/1999/xhtml\"\u003e\n\t\t\t\t\t\t\u003ch3\u003eLipid Report for Wile. E. COYOTE (MRN: 23453) issued 3-Mar 2009 14:26\u003c/h3\u003e\n\t\t\t\t\t\t\u003cpre\u003e\nTest                  Units       Value       Reference Range\nCholesterol           mmol/L      6.3         \u0026lt;4.5\nTriglyceride          mmol/L      1.3         \u0026lt;2.0\nHDL Cholesterol       mmol/L      1.3         \u0026gt;1.5\nLDL Chol. (calc)      mmol/L      4.2         \u0026lt;3.0\n      \u003c/pre\u003e\n\t\t\t\t\t\t\u003cp\u003eAcme Laboratory, Inc signed: Dr Pete Pathologist\u003c/p\u003e\n\t\t\t\t\t\u003c/div\u003e"
        },
        "identifier": [
          {
            "system": "http://acme.com/lab/reports",
            "value": "5234342"
          }
        ],
        "status": "final",
        "category": [
          {
            "coding": [
              {
                "system": "http://terminology.hl7.org/CodeSystem/v2-0074",
                "code": "HM"
              }
            ]
          }
        ],
        "code": {
          "coding": [
            {
              "system": "http://loinc.org",
              "code": "57698-3",
              "display": "Lipid panel with direct LDL - Serum or Plasma"
            }
          ],
          "text": "Lipid Panel"
        },
        "subject": {
          "reference": "Patient/pat2"
        },
        "effectiveDateTime": "2011-03-04T08:30:00+11:00",
        "issued": "2013-01-27T11:45:33+11:00",
        "performer": [
          {
            "reference": "Organization/1832473e-2fe0-452d-abe9-3cdb9879522f",
            "display": "Acme Laboratory, Inc"
          }
        ],
        "result": [
          {
            "id": "1",
            "reference": "Observation/cholesterol"
          },
          {
            "id": "2",
            "reference": "Observation/triglyceride"
          },
          {
            "id": "3",
            "reference": "Observation/hdlcholesterol"
          },
          {
            "id": "4",
            "reference": "Observation/ldlcholesterol"
          }
        ]
      }
    },
    {
      "fullUrl": "https://example.com/base/Observation/cholesterol",
      "resource": {
        "resourceType": "Observation",
        "id": "cholesterol",
        "text": {
          "status": "generated",
          "div": "\u003cdiv xmlns\u003d\"http://www.w3.org/1999/xhtml\"\u003e\u003cp\u003e\u003cb\u003eGenerated Narrative\u003c/b\u003e\u003c/p\u003e\u003cp/\u003e\u003cp\u003e\u003cb\u003ecode\u003c/b\u003e: \u003cspan\u003eCholesterol\u003c/span\u003e\u003c/p\u003e\u003cp\u003e\u003cb\u003esubject\u003c/b\u003e: \u003ca\u003eGenerated Summary: Medical record number: 123456 (USUAL); active; Duck D Donald (OFFICIAL); gender: other\u003c/a\u003e\u003c/p\u003e\u003cp\u003e\u003cb\u003eperformer\u003c/b\u003e: \u003ca\u003eAcme Laboratory, Inc. Generated Summary: id: ClinLab; name: Clinical Lab; Phone: +1 555 234 1234, contact@labs.acme.org\u003c/a\u003e\u003c/p\u003e\u003cp\u003e\u003cb\u003evalue\u003c/b\u003e: 6.3 mmol/L\u003c/p\u003e\u003ch3\u003eReferenceRanges\u003c/h3\u003e\u003ctable\u003e\u003ctr\u003e\u003ctd\u003e-\u003c/td\u003e\u003ctd\u003e\u003cb\u003eHigh\u003c/b\u003e\u003c/td\u003e\u003c/tr\u003e\u003ctr\u003e\u003ctd\u003e*\u003c/td\u003e\u003ctd\u003e4.5 mmol/L\u003c/td\u003e\u003c/tr\u003e\u003c/table\u003e\u003c/div\u003e"
        },
        "status": "final",
        "code": {
          "coding": [
            {
              "system": "http://loinc.org",
              "code": "35200-5",
              "display": "Cholesterol [Moles/​volume] in Serum or Plasma"
            }
          ],
          "text": "Cholesterol"
        },
        "subject": {
          "reference": "Patient/pat2"
        },
        "performer": [
          {
            "reference": "Organization/1832473e-2fe0-452d-abe9-3cdb9879522f",
            "display": "Acme Laboratory, Inc"
          }
        ],
        "valueQuantity": {
          "value": 6.3,
          "unit": "mmol/L",
          "system": "http://unitsofmeasure.org",
          "code": "mmol/L"
        },
        "referenceRange": [
          {
            "high": {
              "value": 4.5,
              "unit": "mmol/L",
              "system": "http://unitsofmeasure.org",
              "code": "mmol/L"
            }
          }
        ]
      }
    },
    {
      "fullUrl": "https://example.com/base/Observation/triglyceride",
      "resource": {
        "resourceType": "Observation",
        "id": "triglyceride",
        "text": {
          "status": "generated",
          "div": "\u003cdiv xmlns\u003d\"http://www.w3.org/1999/xhtml\"\u003e\u003cp\u003e\u003cb\u003eGenerated Narrative\u003c/b\u003e\u003c/p\u003e\u003cp/\u003e\u003cp\u003e\u003cb\u003ecode\u003c/b\u003e: \u003cspan\u003eTriglyceride\u003c/span\u003e\u003c/p\u003e\u003cp\u003e\u003cb\u003esubject\u003c/b\u003e: \u003ca\u003eGenerated Summary: Medical record number: 123456 (USUAL); active; Duck D Donald (OFFICIAL); gender: other\u003c/a\u003e\u003c/p\u003e\u003cp\u003e\u003cb\u003eperformer\u003c/b\u003e: \u003ca\u003eAcme Laboratory, Inc. Generated Summary: id: ClinLab; name: Clinical Lab; Phone: +1 555 234 1234, contact@labs.acme.org\u003c/a\u003e\u003c/p\u003e\u003cp\u003e\u003cb\u003evalue\u003c/b\u003e: 1.3 mmol/L\u003c/p\u003e\u003ch3\u003eReferenceRanges\u003c/h3\u003e\u003ctable\u003e\u003ctr\u003e\u003ctd\u003e-\u003c/td\u003e\u003ctd\u003e\u003cb\u003eHigh\u003c/b\u003e\u003c/td\u003e\u003c/tr\u003e\u003ctr\u003e\u003ctd\u003e*\u003c/td\u003e\u003ctd\u003e2.0 mmol/L\u003c/td\u003e\u003c/tr\u003e\u003c/table\u003e\u003c/div\u003e"
        },
        "status": "final",
        "code": {
          "coding": [
            {
              "system": "http://loinc.org",
              "code": "35217-9",
              "display": "Triglyceride [Moles/​volume] in Serum or Plasma"
            }
          ],
          "text": "Triglyceride"
        },
        "subject": {
          "reference": "Patient/pat2"
        },
        "performer": [
          {
            "reference": "Organization/1832473e-2fe0-452d-abe9-3cdb9879522f",
            "display": "Acme Laboratory, Inc"
          }
        ],
        "valueQuantity": {
          "value": 1.3,
          "unit": "mmol/L",
          "system": "http://unitsofmeasure.org",
          "code": "mmol/L"
        },
        "referenceRange": [
          {
            "high": {
              "value": 2.0,
              "unit": "mmol/L",
              "system": "http://unitsofmeasure.org",
              "code": "mmol/L"
            }
          }
        ]
      }
    },
    {
      "fullUrl": "https://example.com/base/Observation/hdlcholesterol",
      "resource": {
        "resourceType": "Observation",
        "id": "hdlcholesterol",
        "text": {
          "status": "generated",
          "div": "\u003cdiv xmlns\u003d\"http://www.w3.org/1999/xhtml\"\u003e\u003cp\u003e\u003cb\u003eGenerated Narrative\u003c/b\u003e\u003c/p\u003e\u003cp/\u003e\u003cp\u003e\u003cb\u003ecode\u003c/b\u003e: \u003cspan\u003eCholesterol in HDL\u003c/span\u003e\u003c/p\u003e\u003cp\u003e\u003cb\u003esubject\u003c/b\u003e: \u003ca\u003eGenerated Summary: Medical record number: 123456 (USUAL); active; Duck D Donald (OFFICIAL); gender: other\u003c/a\u003e\u003c/p\u003e\u003cp\u003e\u003cb\u003eperformer\u003c/b\u003e: \u003ca\u003eAcme Laboratory, Inc. Generated Summary: id: ClinLab; name: Clinical Lab; Phone: +1 555 234 1234, contact@labs.acme.org\u003c/a\u003e\u003c/p\u003e\u003cp\u003e\u003cb\u003evalue\u003c/b\u003e: 1.3 mmol/L\u003c/p\u003e\u003ch3\u003eReferenceRanges\u003c/h3\u003e\u003ctable\u003e\u003ctr\u003e\u003ctd\u003e-\u003c/td\u003e\u003ctd\u003e\u003cb\u003eLow\u003c/b\u003e\u003c/td\u003e\u003c/tr\u003e\u003ctr\u003e\u003ctd\u003e*\u003c/td\u003e\u003ctd\u003e1.5 mmol/L\u003c/td\u003e\u003c/tr\u003e\u003c/table\u003e\u003c/div\u003e"
        },
        "status": "final",
        "code": {
          "coding": [
            {
              "system": "http://loinc.org",
              "code": "2085-9",
              "display": "HDL Cholesterol"
            }
          ],
          "text": "Cholesterol in HDL"
        },
        "subject": {
          "reference": "Patient/pat2"
        },
        "performer": [
          {
            "reference": "Organization/1832473e-2fe0-452d-abe9-3cdb9879522f",
            "display": "Acme Laboratory, Inc"
          }
        ],
        "valueQuantity": {
          "value": 1.3,
          "unit": "mmol/L",
          "system": "http://unitsofmeasure.org",
          "code": "mmol/L"
        },
        "referenceRange": [
          {
            "low": {
              "value": 1.5,
              "unit": "mmol/L",
              "system": "http://unitsofmeasure.org",
              "code": "mmol/L"
            }
          }
        ]
      }
    },
    {
      "fullUrl": "https://example.com/base/Observation/ldlcholesterol",
      "resource": {
        "resourceType": "Observation",
        "id": "ldlcholesterol",
        "text": {
          "status": "generated",
          "div": "\u003cdiv xmlns\u003d\"http://www.w3.org/1999/xhtml\"\u003e\u003cp\u003e\u003cb\u003eGenerated Narrative\u003c/b\u003e\u003c/p\u003e\u003cp/\u003e\u003cp\u003e\u003cb\u003ecode\u003c/b\u003e: \u003cspan\u003eLDL Chol. (Calc)\u003c/span\u003e\u003c/p\u003e\u003cp\u003e\u003cb\u003esubject\u003c/b\u003e: \u003ca\u003eGenerated Summary: Medical record number: 123456 (USUAL); active; Duck D Donald (OFFICIAL); gender: other\u003c/a\u003e\u003c/p\u003e\u003cp\u003e\u003cb\u003eperformer\u003c/b\u003e: \u003ca\u003eAcme Laboratory, Inc. Generated Summary: id: ClinLab; name: Clinical Lab; Phone: +1 555 234 1234, contact@labs.acme.org\u003c/a\u003e\u003c/p\u003e\u003cp\u003e\u003cb\u003evalue\u003c/b\u003e: 4.6 mmol/L\u003c/p\u003e\u003ch3\u003eReferenceRanges\u003c/h3\u003e\u003ctable\u003e\u003ctr\u003e\u003ctd\u003e-\u003c/td\u003e\u003ctd\u003e\u003cb\u003eHigh\u003c/b\u003e\u003c/td\u003e\u003c/tr\u003e\u003ctr\u003e\u003ctd\u003e*\u003c/td\u003e\u003ctd\u003e3.0 mmol/L\u003c/td\u003e\u003c/tr\u003e\u003c/table\u003e\u003c/div\u003e"
        },
        "status": "final",
        "code": {
          "coding": [
            {
              "system": "http://loinc.org",
              "code": "13457-7",
              "display": "Cholesterol in LDL [Mass/volume] in Serum or Plasma by calculation"
            }
          ],
          "text": "LDL Chol. (Calc)"
        },
        "subject": {
          "reference": "Patient/pat2"
        },
        "performer": [
          {
            "reference": "Organization/1832473e-2fe0-452d-abe9-3cdb9879522f",
            "display": "Acme Laboratory, Inc"
          }
        ],
        "valueQuantity": {
          "value": 4.6,
          "unit": "mmol/L",
          "system": "http://unitsofmeasure.org",
          "code": "mmol/L"
        },
        "referenceRange": [
          {
            "high": {
              "value": 3.0,
              "unit": "mmol/L",
              "system": "http://unitsofmeasure.org",
              "code": "mmol/L"
            }
          }
        ]
      }
    }
  ],
  "meta": {
    "tag": [
      {
        "system": "http://terminology.hl7.org/CodeSystem/v3-ActReason",
        "code": "HTEST",
        "display": "test health data"
      }
    ]
  }
}