{
  "resourceType": "CarePlan",
  "id": "f203",
  "text": {
    "status": "generated",
    "div": "\u003cdiv xmlns\u003d\"http://www.w3.org/1999/xhtml\"\u003e\u003cp\u003e\u003cb\u003eGenerated Narrative\u003c/b\u003e\u003c/p\u003e\u003cp\u003e\u003cb\u003estatus\u003c/b\u003e: completed\u003c/p\u003e\u003cp\u003e\u003cb\u003eintent\u003c/b\u003e: plan\u003c/p\u003e\u003cp\u003e\u003cb\u003esubject\u003c/b\u003e: \u003ca\u003eRoel. Generated Summary: BSN: 123456789 (OFFICIAL), BSN: 123456789 (OFFICIAL); active; Roel(OFFICIAL); Phone: +31612345678, Phone: +31201234567; gender: male; birthDate: 1960-03-13; \u003cspan\u003eLegally married\u003c/span\u003e; \u003c/a\u003e\u003c/p\u003e\u003cp\u003e\u003cb\u003eperiod\u003c/b\u003e: 2013-04-14 --\u0026gt; 2013-04-21\u003c/p\u003e\u003cp\u003e\u003cb\u003ecareTeam\u003c/b\u003e: \u003ca\u003e \u003c/a\u003e\u003c/p\u003e\u003cblockquote\u003e\u003cblockquote\u003e\u003cp\u003e\u003cb\u003eparticipant\u003c/b\u003e\u003c/p\u003e\u003cp\u003e\u003cb\u003erole\u003c/b\u003e: \u003cspan\u003eReview of care plan\u003c/span\u003e\u003c/p\u003e\u003cp\u003e\u003cb\u003emember\u003c/b\u003e: \u003ca\u003eDokter Bronsig. Generated Summary: UZI-nummer: 12345678901 (OFFICIAL); active; Dokter Bronsig(OFFICIAL); Phone: +31715269111; gender: male; birthDate: 1956-12-24\u003c/a\u003e\u003c/p\u003e\u003c/blockquote\u003e\u003cblockquote\u003e\u003cp\u003e\u003cb\u003eparticipant\u003c/b\u003e\u003c/p\u003e\u003cp\u003e\u003cb\u003erole\u003c/b\u003e: \u003cspan\u003eRadiographic imaging\u003c/span\u003e\u003c/p\u003e\u003cp\u003e\u003cb\u003emember\u003c/b\u003e: \u003ca\u003eLuigi Maas. Generated Summary: UZI-nummer: 12345678902 (OFFICIAL), BIG-nummer: 12345678902 (OFFICIAL); active; Luigi Maas(OFFICIAL); Phone: +31715269111; gender: male; birthDate: 1960-06-12\u003c/a\u003e\u003c/p\u003e\u003c/blockquote\u003e\u003c/blockquote\u003e\u003ch3\u003eAddresses\u003c/h3\u003e\u003ctable\u003e\u003ctr\u003e\u003ctd\u003e-\u003c/td\u003e\u003c/tr\u003e\u003ctr\u003e\u003ctd\u003e*\u003c/td\u003e\u003c/tr\u003e\u003c/table\u003e\u003cp\u003e\u003cb\u003egoal\u003c/b\u003e: \u003ca\u003e \u003c/a\u003e\u003c/p\u003e\u003cblockquote\u003e\u003cp\u003e\u003cb\u003elifecycleStatus\u003c/b\u003e: cancelled\u003c/p\u003e\u003cp\u003e\u003cb\u003edescription\u003c/b\u003e: \u003cspan\u003eCheck whether further treatment of sepsis/pulmonary abcess is required\u003c/span\u003e\u003c/p\u003e\u003cp\u003e\u003cb\u003esubject\u003c/b\u003e: \u003ca\u003eRoel. Generated Summary: BSN: 123456789 (OFFICIAL), BSN: 123456789 (OFFICIAL); active; Roel(OFFICIAL); Phone: +31612345678, Phone: +31201234567; gender: male; birthDate: 1960-03-13; \u003cspan\u003eLegally married\u003c/span\u003e; \u003c/a\u003e\u003c/p\u003e\u003c/blockquote\u003e\u003cblockquote\u003e\u003cp\u003e\u003cb\u003eactivity\u003c/b\u003e\u003c/p\u003e\u003ch3\u003ePlannedActivityDetails\u003c/h3\u003e\u003ctable\u003e\u003ctr\u003e\u003ctd\u003e-\u003c/td\u003e\u003ctd\u003e\u003cb\u003eKind\u003c/b\u003e\u003c/td\u003e\u003ctd\u003e\u003cb\u003eCode\u003c/b\u003e\u003c/td\u003e\u003ctd\u003e\u003cb\u003eStatus\u003c/b\u003e\u003c/td\u003e\u003ctd\u003e\u003cb\u003eDoNotPerform\u003c/b\u003e\u003c/td\u003e\u003c/tr\u003e\u003ctr\u003e\u003ctd\u003e*\u003c/td\u003e\u003ctd\u003eServiceRequest\u003c/td\u003e\u003ctd\u003e\u003cspan\u003eHigh resolution computed tomography of lungs\u003c/span\u003e\u003c/td\u003e\u003ctd\u003enot-started\u003c/td\u003e\u003ctd\u003efalse\u003c/td\u003e\u003c/tr\u003e\u003c/table\u003e\u003c/blockquote\u003e\u003c/div\u003e"
  },
  "contained": [
    {
      "resourceType": "CareTeam",
      "id": "careteam",
      "participant": [
        {
          "role": {
            "coding": [
              {
                "system": "http://snomed.info/sct",
                "code": "425268008",
                "display": "Review of care plan"
              }
            ]
          },
          "member": {
            "reference": "Practitioner/f201",
            "display": "Dokter Bronsig"
          }
        },
        {
          "role": {
            "coding": [
              {
                "system": "http://snomed.info/sct",
                "code": "278110001",
                "display": "Radiographic imaging"
              }
            ]
          },
          "member": {
            "reference": "Practitioner/f202",
            "display": "Luigi Maas"
          }
        }
      ]
    },
    {
      "resourceType": "Goal",
      "id": "goal",
      "lifecycleStatus": "cancelled",
      "description": {
        "text": "Check whether further treatment of sepsis/pulmonary abcess is required"
      },
      "subject": {
        "reference": "Patient/f201",
        "display": "Roel"
      }
    }
  ],
  "status": "completed",
  "intent": "plan",
  "subject": {
    "reference": "Patient/f201",
    "display": "Roel"
  },
  "period": {
    "start": "2013-04-14",
    "end": "2013-04-21"
  },
  "careTeam": [
    {
      "reference": "#careteam"
    }
  ],
  "addresses": [
    {
      "reference": {
        "reference": "Condition/f203",
        "display": "Roel\u0027s sepsis"
      }
    }
  ],
  "goal": [
    {
      "reference": "#goal"
    }
  ],
  "activity": [
    {
      "plannedActivityDetail": {
        "kind": "ServiceRequest",
        "code": {
          "coding": [
            {
              "system": "http://snomed.info/sct",
              "code": "241541005",
              "display": "High resolution computed tomography of lungs"
            }
          ]
        },
        "status": "not-started",
        "doNotPerform": false
      }
    }
  ],
  "meta": {
    "tag": [
      {
        "system": "http://terminology.hl7.org/CodeSystem/v3-ActReason",
        "code": "HTEST",
        "display": "test health data"
      }
    ]
  }
}