{
  "resourceType": "CarePlan",
  "id": "f002",
  "text": {
    "status": "generated",
    "div": "\u003cdiv xmlns\u003d\"http://www.w3.org/1999/xhtml\"\u003e\u003cp\u003e\u003cb\u003eGenerated Narrative\u003c/b\u003e\u003c/p\u003e\u003cp\u003e\u003cb\u003eidentifier\u003c/b\u003e: id: CP2934 (OFFICIAL)\u003c/p\u003e\u003cp\u003e\u003cb\u003estatus\u003c/b\u003e: completed\u003c/p\u003e\u003cp\u003e\u003cb\u003eintent\u003c/b\u003e: plan\u003c/p\u003e\u003cp\u003e\u003cb\u003esubject\u003c/b\u003e: \u003ca\u003eP. van de Heuvel. Generated Summary: id: 738472983 (USUAL), id: ?ngen-9? (USUAL); active; Pieter van de Heuvel ; Phone: 0648352638, p.heuvel@gmail.com; gender: male; birthDate: 1944-11-17; \u003cspan\u003eGetrouwd\u003c/span\u003e; multipleBirth\u003c/a\u003e\u003c/p\u003e\u003cp\u003e\u003cb\u003eperiod\u003c/b\u003e: 2011-07-06 --\u0026gt; 2013-07-07\u003c/p\u003e\u003cp\u003e\u003cb\u003ecareTeam\u003c/b\u003e: \u003ca\u003e \u003c/a\u003e\u003c/p\u003e\u003cblockquote\u003e\u003ch3\u003eParticipants\u003c/h3\u003e\u003ctable\u003e\u003ctr\u003e\u003ctd\u003e-\u003c/td\u003e\u003ctd\u003e\u003cb\u003eMember\u003c/b\u003e\u003c/td\u003e\u003c/tr\u003e\u003ctr\u003e\u003ctd\u003e*\u003c/td\u003e\u003ctd\u003e\u003ca\u003eM.I.M. Versteegh. Generated Summary: id: 846100293 (OFFICIAL), id: 243HID3RT938 (USUAL); Marc Versteegh (OFFICIAL); Phone: 0205562431, m.versteegh@bmc.nl, Fax: 0205662948; gender: male; birthDate: 1963-07-01; \u003cspan\u003eDutch\u003c/span\u003e\u003c/a\u003e\u003c/td\u003e\u003c/tr\u003e\u003c/table\u003e\u003c/blockquote\u003e\u003ch3\u003eAddresses\u003c/h3\u003e\u003ctable\u003e\u003ctr\u003e\u003ctd\u003e-\u003c/td\u003e\u003c/tr\u003e\u003ctr\u003e\u003ctd\u003e*\u003c/td\u003e\u003c/tr\u003e\u003c/table\u003e\u003cp\u003e\u003cb\u003egoal\u003c/b\u003e: \u003ca\u003e \u003c/a\u003e\u003c/p\u003e\u003cblockquote\u003e\u003cp\u003e\u003cb\u003elifecycleStatus\u003c/b\u003e: completed\u003c/p\u003e\u003cp\u003e\u003cb\u003eachievementStatus\u003c/b\u003e: \u003cspan\u003eAchieved\u003c/span\u003e\u003c/p\u003e\u003cp\u003e\u003cb\u003edescription\u003c/b\u003e: \u003cspan\u003esuccesful surgery on lung of patient\u003c/span\u003e\u003c/p\u003e\u003cp\u003e\u003cb\u003esubject\u003c/b\u003e: \u003ca\u003eP. van de Heuvel. Generated Summary: id: 738472983 (USUAL), id: ?ngen-9? (USUAL); active; Pieter van de Heuvel ; Phone: 0648352638, p.heuvel@gmail.com; gender: male; birthDate: 1944-11-17; \u003cspan\u003eGetrouwd\u003c/span\u003e; multipleBirth\u003c/a\u003e\u003c/p\u003e\u003cp\u003e\u003cb\u003enote\u003c/b\u003e: goal accomplished with minor complications\u003c/p\u003e\u003c/blockquote\u003e\u003cblockquote\u003e\u003cp\u003e\u003cb\u003eactivity\u003c/b\u003e\u003c/p\u003e\u003ch3\u003ePlannedActivityDetails\u003c/h3\u003e\u003ctable\u003e\u003ctr\u003e\u003ctd\u003e-\u003c/td\u003e\u003ctd\u003e\u003cb\u003eKind\u003c/b\u003e\u003c/td\u003e\u003ctd\u003e\u003cb\u003eCode\u003c/b\u003e\u003c/td\u003e\u003ctd\u003e\u003cb\u003eStatus\u003c/b\u003e\u003c/td\u003e\u003ctd\u003e\u003cb\u003eDoNotPerform\u003c/b\u003e\u003c/td\u003e\u003ctd\u003e\u003cb\u003eScheduled[x]\u003c/b\u003e\u003c/td\u003e\u003ctd\u003e\u003cb\u003ePerformer\u003c/b\u003e\u003c/td\u003e\u003c/tr\u003e\u003ctr\u003e\u003ctd\u003e*\u003c/td\u003e\u003ctd\u003eServiceRequest\u003c/td\u003e\u003ctd\u003e\u003cspan\u003ePartial lobectomy of lung\u003c/span\u003e\u003c/td\u003e\u003ctd\u003ecompleted\u003c/td\u003e\u003ctd\u003etrue\u003c/td\u003e\u003ctd\u003e2011-07-07T09:30:10+01:00\u003c/td\u003e\u003ctd\u003e\u003ca\u003eM.I.M. Versteegh. Generated Summary: id: 846100293 (OFFICIAL), id: 243HID3RT938 (USUAL); Marc Versteegh (OFFICIAL); Phone: 0205562431, m.versteegh@bmc.nl, Fax: 0205662948; gender: male; birthDate: 1963-07-01; \u003cspan\u003eDutch\u003c/span\u003e\u003c/a\u003e\u003c/td\u003e\u003c/tr\u003e\u003c/table\u003e\u003c/blockquote\u003e\u003c/div\u003e"
  },
  "contained": [
    {
      "resourceType": "CareTeam",
      "id": "careteam",
      "participant": [
        {
          "member": {
            "reference": "Practitioner/f003",
            "display": "M.I.M. Versteegh"
          }
        }
      ]
    },
    {
      "resourceType": "Goal",
      "id": "goal",
      "lifecycleStatus": "completed",
      "achievementStatus": {
        "coding": [
          {
            "system": "http://terminology.hl7.org/CodeSystem/goal-achievement",
            "code": "achieved",
            "display": "Achieved"
          }
        ],
        "text": "Achieved"
      },
      "description": {
        "text": "succesful surgery on lung of patient"
      },
      "subject": {
        "reference": "Patient/f001",
        "display": "P. van de Heuvel"
      },
      "note": [
        {
          "text": "goal accomplished with minor complications"
        }
      ]
    }
  ],
  "identifier": [
    {
      "use": "official",
      "system": "http://www.bmc.nl/zorgportal/identifiers/careplans",
      "value": "CP2934"
    }
  ],
  "status": "completed",
  "intent": "plan",
  "subject": {
    "reference": "Patient/f001",
    "display": "P. van de Heuvel"
  },
  "period": {
    "start": "2011-07-06",
    "end": "2013-07-07"
  },
  "careTeam": [
    {
      "reference": "#careteam"
    }
  ],
  "addresses": [
    {
      "reference": {
        "reference": "Condition/f201",
        "display": "?????"
      }
    }
  ],
  "goal": [
    {
      "reference": "#goal"
    }
  ],
  "activity": [
    {
      "plannedActivityDetail": {
        "kind": "ServiceRequest",
        "code": {
          "coding": [
            {
              "system": "http://snomed.info/sct",
              "code": "359615001",
              "display": "Partial lobectomy of lung"
            }
          ]
        },
        "status": "completed",
        "doNotPerform": true,
        "scheduledString": "2011-07-07T09:30:10+01:00",
        "performer": [
          {
            "reference": "Practitioner/f003",
            "display": "M.I.M. Versteegh"
          }
        ]
      }
    }
  ],
  "meta": {
    "tag": [
      {
        "system": "http://terminology.hl7.org/CodeSystem/v3-ActReason",
        "code": "HTEST",
        "display": "test health data"
      }
    ]
  }
}