{
  "resourceType": "CarePlan",
  "id": "f201",
  "text": {
    "status": "generated",
    "div": "\u003cdiv xmlns\u003d\"http://www.w3.org/1999/xhtml\"\u003e\u003cp\u003e\u003cb\u003eGenerated Narrative\u003c/b\u003e\u003c/p\u003e\u003cp\u003e\u003cb\u003estatus\u003c/b\u003e: draft\u003c/p\u003e\u003cp\u003e\u003cb\u003eintent\u003c/b\u003e: proposal\u003c/p\u003e\u003cp\u003e\u003cb\u003esubject\u003c/b\u003e: \u003ca\u003eRoel. Generated Summary: BSN: 123456789 (OFFICIAL), BSN: 123456789 (OFFICIAL); active; Roel(OFFICIAL); Phone: +31612345678, Phone: +31201234567; gender: male; birthDate: 1960-03-13; \u003cspan\u003eLegally married\u003c/span\u003e; \u003c/a\u003e\u003c/p\u003e\u003cp\u003e\u003cb\u003eperiod\u003c/b\u003e: 2013-03-11 --\u0026gt; 2013-03-13\u003c/p\u003e\u003cp\u003e\u003cb\u003ecareTeam\u003c/b\u003e: \u003ca\u003e \u003c/a\u003e\u003c/p\u003e\u003cblockquote\u003e\u003cblockquote\u003e\u003cp\u003e\u003cb\u003eparticipant\u003c/b\u003e\u003c/p\u003e\u003cp\u003e\u003cb\u003erole\u003c/b\u003e: \u003cspan\u003eReview of care plan\u003c/span\u003e\u003c/p\u003e\u003cp\u003e\u003cb\u003emember\u003c/b\u003e: \u003ca\u003eDokter Bronsig. Generated Summary: UZI-nummer: 12345678901 (OFFICIAL); active; Dokter Bronsig(OFFICIAL); Phone: +31715269111; gender: male; birthDate: 1956-12-24\u003c/a\u003e\u003c/p\u003e\u003c/blockquote\u003e\u003cblockquote\u003e\u003cp\u003e\u003cb\u003eparticipant\u003c/b\u003e\u003c/p\u003e\u003cp\u003e\u003cb\u003erole\u003c/b\u003e: \u003cspan\u003eCarer\u003c/span\u003e\u003c/p\u003e\u003cp\u003e\u003cb\u003emember\u003c/b\u003e: \u003ca\u003eNurse Carla Espinosa. Generated Summary: UZI-nummer: 12345678904 (OFFICIAL); Carla Espinosa; Phone: +31715262169; gender: female; birthDate: 1967-11-05\u003c/a\u003e\u003c/p\u003e\u003c/blockquote\u003e\u003c/blockquote\u003e\u003ch3\u003eAddresses\u003c/h3\u003e\u003ctable\u003e\u003ctr\u003e\u003ctd\u003e-\u003c/td\u003e\u003c/tr\u003e\u003ctr\u003e\u003ctd\u003e*\u003c/td\u003e\u003c/tr\u003e\u003c/table\u003e\u003cp\u003e\u003cb\u003egoal\u003c/b\u003e: \u003ca\u003e \u003c/a\u003e\u003c/p\u003e\u003cblockquote\u003e\u003cp\u003e\u003cb\u003elifecycleStatus\u003c/b\u003e: completed\u003c/p\u003e\u003cp\u003e\u003cb\u003eachievementStatus\u003c/b\u003e: \u003cspan\u003eAchieved\u003c/span\u003e\u003c/p\u003e\u003cp\u003e\u003cb\u003edescription\u003c/b\u003e: \u003cspan\u003eRe-established renal function with at least healthy nutrients.\u003c/span\u003e\u003c/p\u003e\u003cp\u003e\u003cb\u003esubject\u003c/b\u003e: \u003ca\u003eRoel. Generated Summary: BSN: 123456789 (OFFICIAL), BSN: 123456789 (OFFICIAL); active; Roel(OFFICIAL); Phone: +31612345678, Phone: +31201234567; gender: male; birthDate: 1960-03-13; \u003cspan\u003eLegally married\u003c/span\u003e; \u003c/a\u003e\u003c/p\u003e\u003c/blockquote\u003e\u003cblockquote\u003e\u003cp\u003e\u003cb\u003eactivity\u003c/b\u003e\u003c/p\u003e\u003ch3\u003ePlannedActivityDetails\u003c/h3\u003e\u003ctable\u003e\u003ctr\u003e\u003ctd\u003e-\u003c/td\u003e\u003ctd\u003e\u003cb\u003eKind\u003c/b\u003e\u003c/td\u003e\u003ctd\u003e\u003cb\u003eCode\u003c/b\u003e\u003c/td\u003e\u003ctd\u003e\u003cb\u003eStatus\u003c/b\u003e\u003c/td\u003e\u003ctd\u003e\u003cb\u003eDoNotPerform\u003c/b\u003e\u003c/td\u003e\u003ctd\u003e\u003cb\u003eScheduled[x]\u003c/b\u003e\u003c/td\u003e\u003ctd\u003e\u003cb\u003eProduct[x]\u003c/b\u003e\u003c/td\u003e\u003ctd\u003e\u003cb\u003eDailyAmount\u003c/b\u003e\u003c/td\u003e\u003c/tr\u003e\u003ctr\u003e\u003ctd\u003e*\u003c/td\u003e\u003ctd\u003eNutritionOrder\u003c/td\u003e\u003ctd\u003e\u003cspan\u003ePotassium supplementation\u003c/span\u003e\u003c/td\u003e\u003ctd\u003ecompleted\u003c/td\u003e\u003ctd\u003efalse\u003c/td\u003e\u003ctd\u003edaily\u003c/td\u003e\u003ctd\u003e\u003ca\u003ePotassium. Generated Summary: id: 1234; \u003cspan\u003eChemical\u003c/span\u003e\u003c/a\u003e\u003c/td\u003e\u003ctd\u003e80 mmol\u003c/td\u003e\u003c/tr\u003e\u003c/table\u003e\u003c/blockquote\u003e\u003cblockquote\u003e\u003cp\u003e\u003cb\u003eactivity\u003c/b\u003e\u003c/p\u003e\u003ch3\u003ePlannedActivityDetails\u003c/h3\u003e\u003ctable\u003e\u003ctr\u003e\u003ctd\u003e-\u003c/td\u003e\u003ctd\u003e\u003cb\u003eKind\u003c/b\u003e\u003c/td\u003e\u003ctd\u003e\u003cb\u003eCode\u003c/b\u003e\u003c/td\u003e\u003ctd\u003e\u003cb\u003eStatus\u003c/b\u003e\u003c/td\u003e\u003ctd\u003e\u003cb\u003eDoNotPerform\u003c/b\u003e\u003c/td\u003e\u003c/tr\u003e\u003ctr\u003e\u003ctd\u003e*\u003c/td\u003e\u003ctd\u003eServiceRequest\u003c/td\u003e\u003ctd\u003e\u003cspan\u003eEchography of kidney\u003c/span\u003e\u003c/td\u003e\u003ctd\u003ecompleted\u003c/td\u003e\u003ctd\u003efalse\u003c/td\u003e\u003c/tr\u003e\u003c/table\u003e\u003c/blockquote\u003e\u003c/div\u003e"
  },
  "contained": [
    {
      "resourceType": "CareTeam",
      "id": "careteam",
      "participant": [
        {
          "role": {
            "coding": [
              {
                "system": "http://snomed.info/sct",
                "code": "425268008",
                "display": "Review of care plan"
              }
            ]
          },
          "member": {
            "reference": "Practitioner/f201",
            "display": "Dokter Bronsig"
          }
        },
        {
          "role": {
            "coding": [
              {
                "system": "http://snomed.info/sct",
                "code": "229774002",
                "display": "Carer"
              }
            ]
          },
          "member": {
            "reference": "Practitioner/f204",
            "display": "Nurse Carla Espinosa"
          }
        }
      ]
    },
    {
      "resourceType": "Goal",
      "id": "goal",
      "lifecycleStatus": "completed",
      "achievementStatus": {
        "coding": [
          {
            "system": "http://terminology.hl7.org/CodeSystem/goal-achievement",
            "code": "achieved",
            "display": "Achieved"
          }
        ],
        "text": "Achieved"
      },
      "description": {
        "text": "Re-established renal function with at least healthy nutrients."
      },
      "subject": {
        "reference": "Patient/f201",
        "display": "Roel"
      }
    }
  ],
  "status": "draft",
  "intent": "proposal",
  "subject": {
    "reference": "Patient/f201",
    "display": "Roel"
  },
  "period": {
    "start": "2013-03-11",
    "end": "2013-03-13"
  },
  "careTeam": [
    {
      "reference": "#careteam"
    }
  ],
  "addresses": [
    {
      "reference": {
        "reference": "Condition/f204",
        "display": "Roel\u0027s renal insufficiency"
      }
    }
  ],
  "goal": [
    {
      "reference": "#goal"
    }
  ],
  "activity": [
    {
      "plannedActivityDetail": {
        "kind": "NutritionOrder",
        "code": {
          "coding": [
            {
              "system": "http://snomed.info/sct",
              "code": "284093001",
              "display": "Potassium supplementation"
            }
          ]
        },
        "status": "completed",
        "doNotPerform": false,
        "scheduledString": "daily",
        "productReference": {
          "reference": "Substance/f203",
          "display": "Potassium"
        },
        "dailyAmount": {
          "value": 80,
          "unit": "mmol",
          "system": "http://snomed.info/sct",
          "code": "258718000"
        }
      }
    },
    {
      "plannedActivityDetail": {
        "kind": "ServiceRequest",
        "code": {
          "coding": [
            {
              "system": "http://snomed.info/sct",
              "code": "306005",
              "display": "Echography of kidney"
            }
          ]
        },
        "status": "completed",
        "doNotPerform": false
      }
    }
  ],
  "meta": {
    "tag": [
      {
        "system": "http://terminology.hl7.org/CodeSystem/v3-ActReason",
        "code": "HTEST",
        "display": "test health data"
      }
    ]
  }
}