{
  "resourceType": "DocumentReference",
  "id": "example",
  "text": {
    "status": "generated",
    "div": "\u003cdiv xmlns\u003d\"http://www.w3.org/1999/xhtml\"\u003e\u003cp\u003e\u003cb\u003eGenerated Narrative\u003c/b\u003e\u003c/p\u003e\u003cp\u003e\u003cb\u003eidentifier\u003c/b\u003e: id: urn:oid:1.3.6.1.4.1.21367.2005.3.7.1234\u003c/p\u003e\u003cp\u003e\u003cb\u003estatus\u003c/b\u003e: current\u003c/p\u003e\u003cp\u003e\u003cb\u003edocStatus\u003c/b\u003e: preliminary\u003c/p\u003e\u003cp\u003e\u003cb\u003etype\u003c/b\u003e: \u003cspan\u003eOutpatient Note\u003c/span\u003e\u003c/p\u003e\u003cp\u003e\u003cb\u003ecategory\u003c/b\u003e: \u003cspan\u003eHistory and Physical\u003c/span\u003e\u003c/p\u003e\u003cp\u003e\u003cb\u003esubject\u003c/b\u003e: \u003ca\u003eGenerated Summary: Medical record number: 12345 (USUAL); active; Henry Levin ; gender: male; birthDate: 1932-09-24\u003c/a\u003e\u003c/p\u003e\u003cp\u003e\u003cb\u003eencounter\u003c/b\u003e: \u003ca\u003eGenerated Summary: id: 1234213.52345873 (OFFICIAL); status: completed; \u003cspan\u003eambulatory\u003c/span\u003e\u003c/a\u003e\u003c/p\u003e\u003cp\u003e\u003cb\u003eevent\u003c/b\u003e: \u003cspan\u003eArm\u003c/span\u003e\u003c/p\u003e\u003cp\u003e\u003cb\u003efacilityType\u003c/b\u003e: \u003cspan\u003eOutpatient\u003c/span\u003e\u003c/p\u003e\u003cp\u003e\u003cb\u003epracticeSetting\u003c/b\u003e: \u003cspan\u003eGeneral Medicine\u003c/span\u003e\u003c/p\u003e\u003cp\u003e\u003cb\u003eperiod\u003c/b\u003e: 23 Dec. 2004, 8:00:00 am --\u0026gt; 23 Dec. 2004, 8:01:00 am\u003c/p\u003e\u003cp\u003e\u003cb\u003edate\u003c/b\u003e: 24 Dec. 2005, 9:43:41 am\u003c/p\u003e\u003cp\u003e\u003cb\u003eauthor\u003c/b\u003e: \u003c/p\u003e\u003cul\u003e\u003cli\u003e\u003ca\u003eGenerated Summary: id: D234123 (OFFICIAL); Sherry Dopplemeyer ; john.doe@healthcare.example.org\u003c/a\u003e\u003c/li\u003e\u003cli\u003e\u003ca\u003e \u003c/a\u003e\u003c/li\u003e\u003c/ul\u003e\u003cblockquote\u003e\u003cp\u003e\u003cb\u003ename\u003c/b\u003e: Gerald Smitty \u003c/p\u003e\u003c/blockquote\u003e\u003ch3\u003eAttesters\u003c/h3\u003e\u003ctable\u003e\u003ctr\u003e\u003ctd\u003e-\u003c/td\u003e\u003ctd\u003e\u003cb\u003eMode\u003c/b\u003e\u003c/td\u003e\u003ctd\u003e\u003cb\u003eParty\u003c/b\u003e\u003c/td\u003e\u003c/tr\u003e\u003ctr\u003e\u003ctd\u003e*\u003c/td\u003e\u003ctd\u003eofficial\u003c/td\u003e\u003ctd\u003e\u003ca\u003eGenerated Summary: id: 91654 (OFFICIAL), id: 17-0112278 (USUAL); \u003cspan\u003eUniversity Medical Hospital\u003c/span\u003e; name: Burgers University Medical Center; Phone: 022-655 2300\u003c/a\u003e\u003c/td\u003e\u003c/tr\u003e\u003c/table\u003e\u003cp\u003e\u003cb\u003ecustodian\u003c/b\u003e: \u003ca\u003eGenerated Summary: id: 91654 (OFFICIAL), id: 17-0112278 (USUAL); \u003cspan\u003eUniversity Medical Hospital\u003c/span\u003e; name: Burgers University Medical Center; Phone: 022-655 2300\u003c/a\u003e\u003c/p\u003e\u003ch3\u003eRelatesTos\u003c/h3\u003e\u003ctable\u003e\u003ctr\u003e\u003ctd\u003e-\u003c/td\u003e\u003ctd\u003e\u003cb\u003eCode\u003c/b\u003e\u003c/td\u003e\u003ctd\u003e\u003cb\u003eTarget\u003c/b\u003e\u003c/td\u003e\u003c/tr\u003e\u003ctr\u003e\u003ctd\u003e*\u003c/td\u003e\u003ctd\u003eappends\u003c/td\u003e\u003ctd\u003e\u003ca\u003eGenerated Summary: id: urn:oid:1.3.6.1.4.1.21367.2005.3.7.1234; status: current; docStatus: preliminary; \u003cspan\u003eOutpatient Note\u003c/span\u003e; \u003cspan\u003eHistory and Physical\u003c/span\u003e; \u003cspan\u003eArm\u003c/span\u003e; \u003cspan\u003eOutpatient\u003c/span\u003e; \u003cspan\u003eGeneral Medicine\u003c/span\u003e; period: 23 Dec. 2004, 8:00:00 am --\u0026gt; 23 Dec. 2004, 8:01:00 am; date: 24 Dec. 2005, 9:43:41 am; description: Physical; \u003cspan\u003every restricted\u003c/span\u003e\u003c/a\u003e\u003c/td\u003e\u003c/tr\u003e\u003c/table\u003e\u003cp\u003e\u003cb\u003edescription\u003c/b\u003e: Physical\u003c/p\u003e\u003cp\u003e\u003cb\u003esecurityLabel\u003c/b\u003e: \u003cspan\u003every restricted\u003c/span\u003e\u003c/p\u003e\u003cblockquote\u003e\u003cp\u003e\u003cb\u003econtent\u003c/b\u003e\u003c/p\u003e\u003ch3\u003eAttachments\u003c/h3\u003e\u003ctable\u003e\u003ctr\u003e\u003ctd\u003e-\u003c/td\u003e\u003c/tr\u003e\u003ctr\u003e\u003ctd\u003e*\u003c/td\u003e\u003c/tr\u003e\u003c/table\u003e\u003cp\u003e\u003cb\u003eformat\u003c/b\u003e: \u003cspan\u003eHistory and Physical Specification\u003c/span\u003e\u003c/p\u003e\u003cp\u003e\u003cb\u003eidentifier\u003c/b\u003e: id: urn:oid:1.3.6.1.4.1.21367.2005.3.7\u003c/p\u003e\u003c/blockquote\u003e\u003cp\u003e\u003cb\u003esourcePatientInfo\u003c/b\u003e: \u003ca\u003eGenerated Summary: Medical record number: 12345 (USUAL); active; Henry Levin ; gender: male; birthDate: 1932-09-24\u003c/a\u003e\u003c/p\u003e\u003cp\u003e\u003cb\u003erelated\u003c/b\u003e: \u003ca\u003eGenerated Summary: Medical record number: 12345 (USUAL); active; Henry Levin ; gender: male; birthDate: 1932-09-24\u003c/a\u003e\u003c/p\u003e\u003c/div\u003e"
  },
  "contained": [
    {
      "resourceType": "Practitioner",
      "id": "a2",
      "name": [
        {
          "family": "Smitty",
          "given": [
            "Gerald"
          ]
        }
      ]
    }
  ],
  "identifier": [
    {
      "system": "urn:ietf:rfc:3986",
      "value": "urn:oid:1.3.6.1.4.1.21367.2005.3.7.1234"
    }
  ],
  "status": "current",
  "docStatus": "preliminary",
  "type": {
    "coding": [
      {
        "system": "http://loinc.org",
        "code": "34108-1",
        "display": "Outpatient Note"
      }
    ]
  },
  "category": [
    {
      "coding": [
        {
          "system": "http://ihe.net/xds/connectathon/classCodes",
          "code": "History and Physical",
          "display": "History and Physical"
        }
      ]
    }
  ],
  "subject": {
    "reference": "Patient/xcda"
  },
  "encounter": [
    {
      "reference": "Encounter/xcda"
    }
  ],
  "event": [
    {
      "coding": [
        {
          "system": "http://ihe.net/xds/connectathon/eventCodes",
          "code": "T-D8200",
          "display": "Arm"
        }
      ]
    }
  ],
  "facilityType": {
    "coding": [
      {
        "system": "http://www.ihe.net/xds/connectathon/healthcareFacilityTypeCodes",
        "code": "Outpatient",
        "display": "Outpatient"
      }
    ]
  },
  "practiceSetting": {
    "coding": [
      {
        "system": "http://www.ihe.net/xds/connectathon/practiceSettingCodes",
        "code": "General Medicine",
        "display": "General Medicine"
      }
    ]
  },
  "period": {
    "start": "2004-12-23T08:00:00+11:00",
    "end": "2004-12-23T08:01:00+11:00"
  },
  "date": "2005-12-24T09:43:41+11:00",
  "author": [
    {
      "reference": "Practitioner/xcda1"
    },
    {
      "reference": "#a2"
    }
  ],
  "attester": [
    {
      "mode": "official",
      "party": {
        "reference": "Organization/f001"
      }
    }
  ],
  "custodian": {
    "reference": "Organization/f001"
  },
  "relatesTo": [
    {
      "code": "appends",
      "target": {
        "reference": "DocumentReference/example"
      }
    }
  ],
  "description": "Physical",
  "securityLabel": [
    {
      "coding": [
        {
          "system": "http://terminology.hl7.org/CodeSystem/v3-Confidentiality",
          "code": "V",
          "display": "very restricted"
        }
      ]
    }
  ],
  "content": [
    {
      "attachment": {
        "contentType": "application/hl7-v3+xml",
        "language": "en-US",
        "url": "http://example.org/xds/mhd/Binary/07a6483f-732b-461e-86b6-edb665c45510",
        "size": "3654",
        "hash": "2jmj7l5rSw0yVb/vlWAYkK/YBwk\u003d",
        "title": "Physical",
        "creation": "2005-12-24T09:35:00+11:00"
      },
      "format": {
        "system": "urn:oid:1.3.6.1.4.1.19376.1.2.3",
        "code": "urn:ihe:pcc:handp:2008",
        "display": "History and Physical Specification"
      },
      "identifier": {
        "system": "urn:ietf:rfc:3986",
        "value": "urn:oid:1.3.6.1.4.1.21367.2005.3.7"
      }
    }
  ],
  "sourcePatientInfo": {
    "reference": "Patient/xcda"
  },
  "related": [
    {
      "reference": "Patient/xcda",
      "identifier": {
        "system": "urn:ietf:rfc:3986",
        "value": "urn:oid:1.3.6.1.4.1.21367.2005.3.7.2345"
      }
    }
  ],
  "meta": {
    "tag": [
      {
        "system": "http://terminology.hl7.org/CodeSystem/v3-ActReason",
        "code": "HTEST",
        "display": "test health data"
      }
    ]
  }
}