{
  "resourceType": "GuidanceResponse",
  "id": "example",
  "text": {
    "status": "generated",
    "div": "\u003cdiv xmlns\u003d\"http://www.w3.org/1999/xhtml\"\u003e\u003cp\u003e\u003cb\u003eGenerated Narrative\u003c/b\u003e\u003c/p\u003e\u003cp\u003e\u003cb\u003erequestIdentifier\u003c/b\u003e: id: guidanceRequest1\u003c/p\u003e\u003cp\u003e\u003cb\u003eidentifier\u003c/b\u003e: id: guidanceResponse1\u003c/p\u003e\u003cp\u003e\u003cb\u003emodule\u003c/b\u003e: \u003ca\u003ehttp://someguidelineprovider.org/radiology-appropriateness-guidelines.html\u003c/a\u003e\u003c/p\u003e\u003cp\u003e\u003cb\u003estatus\u003c/b\u003e: success\u003c/p\u003e\u003cp\u003e\u003cb\u003esubject\u003c/b\u003e: \u003ca\u003eGenerated Summary: Medical record number: 12345 (USUAL); active; Peter James Chalmers (OFFICIAL), Jim , Peter James Windsor (MAIDEN); , Phone: (03) 5555 6473, Phone: (03) 3410 5613, Phone: (03) 5555 8834; gender: male; birthDate: 1974-12-25; \u003c/a\u003e\u003c/p\u003e\u003cp\u003e\u003cb\u003eencounter\u003c/b\u003e: \u003ca\u003eGenerated Summary: status: in-progress; \u003cspan\u003einpatient encounter\u003c/span\u003e\u003c/a\u003e\u003c/p\u003e\u003cp\u003e\u003cb\u003eoccurrenceDateTime\u003c/b\u003e: 11 Mar. 2017, 3:02:00 am\u003c/p\u003e\u003cp\u003e\u003cb\u003eperformer\u003c/b\u003e: \u003ca\u003eDevice/software\u003c/a\u003e\u003c/p\u003e\u003ch3\u003eReasons\u003c/h3\u003e\u003ctable\u003e\u003ctr\u003e\u003ctd\u003e-\u003c/td\u003e\u003c/tr\u003e\u003ctr\u003e\u003ctd\u003e*\u003c/td\u003e\u003c/tr\u003e\u003c/table\u003e\u003cp\u003e\u003cb\u003eoutputParameters\u003c/b\u003e: \u003ca\u003e \u003c/a\u003e\u003c/p\u003e\u003cblockquote\u003e\u003cblockquote\u003e\u003cp\u003e\u003cb\u003eparameter\u003c/b\u003e\u003c/p\u003e\u003cp\u003e\u003cb\u003ename\u003c/b\u003e: score\u003c/p\u003e\u003cp\u003e\u003cb\u003evalue\u003c/b\u003e: 7\u003c/p\u003e\u003c/blockquote\u003e\u003cblockquote\u003e\u003cp\u003e\u003cb\u003eparameter\u003c/b\u003e\u003c/p\u003e\u003cp\u003e\u003cb\u003ename\u003c/b\u003e: item-assessed\u003c/p\u003e\u003cp\u003e\u003cb\u003evalue\u003c/b\u003e: \u003cspan\u003eCT, head, wo iv contrast\u003c/span\u003e\u003c/p\u003e\u003c/blockquote\u003e\u003cblockquote\u003e\u003cp\u003e\u003cb\u003eparameter\u003c/b\u003e\u003c/p\u003e\u003cp\u003e\u003cb\u003ename\u003c/b\u003e: device\u003c/p\u003e\u003cp\u003e\u003cb\u003evalue\u003c/b\u003e: \u003ca\u003eDevice/software\u003c/a\u003e\u003c/p\u003e\u003c/blockquote\u003e\u003cblockquote\u003e\u003cp\u003e\u003cb\u003eparameter\u003c/b\u003e\u003c/p\u003e\u003cp\u003e\u003cb\u003ename\u003c/b\u003e: guideline-followed\u003c/p\u003e\u003cp\u003e\u003cb\u003evalue\u003c/b\u003e: \u003ca\u003ehttp://someguidelineprovider.org/radiology-appropriateness-guidelines.html\u003c/a\u003e\u003c/p\u003e\u003c/blockquote\u003e\u003c/blockquote\u003e\u003c/div\u003e"
  },
  "contained": [
    {
      "resourceType": "Parameters",
      "id": "outputParameters1",
      "parameter": [
        {
          "name": "score",
          "valueDecimal": 7
        },
        {
          "name": "item-assessed",
          "valueCodeableConcept": {
            "coding": [
              {
                "system": "http://www.ama-assn.org/go/cpt",
                "code": "70450",
                "display": "CT, head, wo iv contrast"
              }
            ]
          }
        },
        {
          "name": "device",
          "valueReference": {
            "reference": "Device/software"
          }
        },
        {
          "name": "guideline-followed",
          "valueUri": "http://someguidelineprovider.org/radiology-appropriateness-guidelines.html"
        }
      ]
    }
  ],
  "requestIdentifier": {
    "system": "http://example.org",
    "value": "guidanceRequest1"
  },
  "identifier": [
    {
      "system": "http://example.org",
      "value": "guidanceResponse1"
    }
  ],
  "moduleUri": "http://someguidelineprovider.org/radiology-appropriateness-guidelines.html",
  "status": "success",
  "subject": {
    "reference": "Patient/example"
  },
  "encounter": {
    "reference": "Encounter/example"
  },
  "occurrenceDateTime": "2017-03-10T16:02:00Z",
  "performer": {
    "reference": "Device/software"
  },
  "reason": [
    {
      "concept": {
        "text": "Guideline Appropriate Ordering Assessment"
      }
    }
  ],
  "outputParameters": {
    "reference": "#outputParameters1"
  },
  "meta": {
    "tag": [
      {
        "system": "http://terminology.hl7.org/CodeSystem/v3-ActReason",
        "code": "HTEST",
        "display": "test health data"
      }
    ]
  }
}